File: OptiHive-OS/data/clean_battery_data.csv
battery_percentage,voltage,temperature,full_charge_capacity,time,timestamp,time_diff,voltage_change,battery_change
53,11165,,,1.73202e+09,2024-11-19 18:57:33,,,
53,12043,,,1.73202e+09,2024-11-19 18:58:33,60.2153,878.0,0.0
54,12130,,,1.73202e+09,2024-11-19 18:59:33,60.2731,87.0,1.0
55,12176,,,1.73202e+09,2024-11-19 19:00:33,60.2204,46.0,1.0
55,12243,,,1.73202e+09,2024-11-19 19:01:33,60.2801,67.0,0.0
56,11823,,,1.73202e+09,2024-11-19 19:02:34,60.2435,-420.0,1.0
57,11779,,,1.73202e+09,2024-11-19 19:03:34,60.2728,-44.0,1.0
57,12284,,,1.73202e+09,2024-11-19 19:04:34,60.225,505.0,0.0
58,12095,,,1.73202e+09,2024-11-19 19:05:34,60.2211,-189.0,1.0
59,12224,,,1.73202e+09,2024-11-19 19:06:35,60.2159,129.0,1.0
60,12162,,,1.73202e+09,2024-11-19 19:07:35,60.2249,-62.0,1.0
60,11930,,,1.73202e+09,2024-11-19 19:08:35,60.2339,-232.0,0.0
61,12173,,,1.73202e+09,2024-11-19 19:09:35,60.2349,243.0,1.0
62,12464,,,1.73202e+09,2024-11-19 19:10:36,60.242,291.0,1.0
62,12112,,,1.73202e+09,2024-11-19 19:11:36,60.2699,-352.0,0.0
63,12467,,,1.73202e+09,2024-11-19 19:12:36,60.2836,355.0,1.0
64,12302,,,1.73202e+09,2024-11-19 19:13:36,60.2372,-165.0,1.0
64,11973,,,1.73202e+09,2024-11-19 19:14:37,60.2279,-329.0,0.0
65,12328,,,1.73202e+09,2024-11-19 19:15:37,60.2525,355.0,1.0
66,12090,,,1.73202e+09,2024-11-19 19:16:37,60.2572,-238.0,1.0
66,12404,,,1.73202e+09,2024-11-19 19:17:37,60.2411,314.0,0.0
67,12064,,,1.73202e+09,2024-11-19 19:18:38,60.2503,-340.0,1.0
67,12279,,,1.73202e+09,2024-11-19 19:19:38,60.2263,215.0,0.0
68,12418,,,1.73202e+09,2024-11-19 19:20:38,60.5264,139.0,1.0
69,12081,,,1.73202e+09,2024-11-19 19:21:39,60.216,-337.0,1.0
70,12413,,,1.73202e+09,2024-11-19 19:22:39,60.2189,332.0,1.0
70,12130,,,1.73202e+09,2024-11-19 19:23:39,60.2382,-283.0,0.0
71,12436,,,1.73202e+09,2024-11-19 19:24:39,60.2385,306.0,1.0
72,12203,,,1.73202e+09,2024-11-19 19:25:39,60.2449,-233.0,1.0
72,12413,,,1.73202e+09,2024-11-19 19:26:40,60.2226,210.0,0.0
73,12262,,,1.73202e+09,2024-11-19 19:27:40,60.235,-151.0,1.0
74,12762,,,1.73202e+09,2024-11-19 19:28:40,60.263,500.0,1.0
74,12432,,,1.73202e+09,2024-11-19 19:29:40,60.2487,-330.0,0.0
75,12548,,,1.73202e+09,2024-11-19 19:30:41,60.2796,116.0,1.0
76,12585,,,1.73202e+09,2024-11-19 19:31:41,60.2299,37.0,1.0
76,12617,,,1.73202e+09,2024-11-19 19:32:41,60.232,32.0,0.0
77,12394,,,1.73203e+09,2024-11-19 19:33:41,60.2358,-223.0,1.0
78,12329,,,1.73203e+09,2024-11-19 19:34:42,60.2646,-65.0,1.0
79,12811,,,1.73203e+09,2024-11-19 19:35:42,60.2952,482.0,1.0
79,12813,,,1.73203e+09,2024-11-19 19:36:42,60.2157,2.0,0.0
80,12821,,,1.73203e+09,2024-11-19 19:37:42,60.2768,8.0,1.0
81,12825,,,1.73203e+09,2024-11-19 19:38:43,60.2796,4.0,1.0
82,12827,,,1.73203e+09,2024-11-19 19:39:43,60.2225,2.0,1.0
83,12832,,,1.73203e+09,2024-11-19 19:40:43,60.2306,5.0,1.0
84,12835,,,1.73203e+09,2024-11-19 19:41:43,60.241,3.0,1.0
85,12833,,,1.73203e+09,2024-11-19 19:42:44,60.2333,-2.0,1.0
86,12837,,,1.73203e+09,2024-11-19 19:43:44,60.22,4.0,1.0
86,12839,,,1.73203e+09,2024-11-19 19:44:44,60.257,2.0,0.0
87,12842,,,1.73203e+09,2024-11-19 19:45:44,60.2273,3.0,1.0
88,12844,,,1.73203e+09,2024-11-19 19:46:45,60.2125,2.0,1.0
89,12846,,,1.73203e+09,2024-11-19 19:47:45,60.2506,2.0,1.0
89,12849,,,1.73203e+09,2024-11-19 19:48:45,60.3219,3.0,0.0
90,12850,,,1.73203e+09,2024-11-19 19:49:45,60.2493,1.0,1.0
91,12854,,,1.73203e+09,2024-11-19 19:50:46,60.2546,4.0,1.0
91,12855,,,1.73203e+09,2024-11-19 19:51:46,60.2389,1.0,0.0
92,12856,,,1.73203e+09,2024-11-19 19:52:46,60.072,1.0,1.0
92,12858,,,1.73203e+09,2024-11-19 19:53:46,60.2318,2.0,0.0
93,12860,,,1.73203e+09,2024-11-19 19:54:46,60.2281,2.0,1.0
93,12862,,,1.73203e+09,2024-11-19 19:55:47,60.2752,2.0,0.0
94,12864,,,1.73203e+09,2024-11-19 19:56:47,60.2209,2.0,1.0
94,12865,,,1.73203e+09,2024-11-19 19:57:47,60.2889,1.0,0.0
95,12867,,,1.73203e+09,2024-11-19 19:58:47,60.2474,2.0,1.0
95,12868,,,1.73203e+09,2024-11-19 19:59:48,60.2655,1.0,0.0
96,12869,,,1.73203e+09,2024-11-19 20:00:48,60.2899,1.0,1.0
96,12870,,,1.73203e+09,2024-11-19 20:01:48,60.2174,1.0,0.0
97,12872,,,1.73203e+09,2024-11-19 20:02:49,60.2972,2.0,1.0
97,12873,,,1.73203e+09,2024-11-19 20:03:49,60.2308,1.0,0.0
97,12874,,,1.73203e+09,2024-11-19 20:04:49,60.2448,1.0,0.0
98,12876,,,1.73203e+09,2024-11-19 20:05:49,60.2368,2.0,1.0
98,12877,,,1.73203e+09,2024-11-19 20:06:50,60.2517,1.0,0.0
98,12878,,,1.73203e+09,2024-11-19 20:07:50,60.2595,1.0,0.0
99,12878,,,1.73203e+09,2024-11-19 20:08:50,60.2333,0.0,1.0
99,12879,,,1.73203e+09,2024-11-19 20:09:50,60.2845,1.0,0.0
100,12883,,,1.73203e+09,2024-11-19 20:10:51,60.2733,4.0,1.0
100,12882,,,1.73203e+09,2024-11-19 20:11:51,60.2125,-1.0,0.0
100,12882,,,1.73203e+09,2024-11-19 20:12:51,60.2259,0.0,0.0
100,12884,,,1.73203e+09,2024-11-19 20:13:51,60.2381,2.0,0.0
100,12886,,,1.73203e+09,2024-11-19 20:14:52,60.2256,2.0,0.0
100,12886,,,1.73203e+09,2024-11-19 20:15:52,60.2647,0.0,0.0
100,12886,,,1.73203e+09,2024-11-19 20:16:52,60.2235,0.0,0.0
100,12887,,,1.73203e+09,2024-11-19 20:17:52,60.2576,1.0,0.0
100,12888,,,1.73203e+09,2024-11-19 20:18:52,60.2853,1.0,0.0
100,12768,,,1.73203e+09,2024-11-19 20:19:53,60.2935,-120.0,0.0
100,12373,,,1.73203e+09,2024-11-19 20:20:53,60.4817,-395.0,0.0
100,12476,,,1.73203e+09,2024-11-19 20:21:54,60.3688,103.0,0.0
100,12460,,,1.73203e+09,2024-11-19 20:22:54,60.3172,-16.0,0.0
100,12366,,,1.73203e+09,2024-11-19 20:23:54,60.1616,-94.0,0.0
99,12425,,,1.73203e+09,2024-11-19 20:24:54,60.3181,59.0,-1.0
99,12471,,,1.73203e+09,2024-11-19 20:25:55,60.3901,46.0,0.0
98,12206,,,1.73203e+09,2024-11-19 20:26:55,60.3338,-265.0,-1.0
98,12220,,,1.73203e+09,2024-11-19 20:27:55,60.2554,14.0,0.0
97,12352,,,1.73203e+09,2024-11-19 20:28:56,60.2996,132.0,-1.0
97,12345,,,1.73203e+09,2024-11-19 20:29:56,60.4005,-7.0,0.0
97,12331,,,1.73203e+09,2024-11-19 20:30:56,60.3897,-14.0,0.0
96,12079,,,1.73203e+09,2024-11-19 20:31:57,60.2771,-252.0,-1.0
96,12260,,,1.73203e+09,2024-11-19 20:32:57,60.4187,181.0,0.0
95,12270,,,1.73203e+09,2024-11-19 20:33:57,60.3617,10.0,-1.0
95,12315,,,1.73203e+09,2024-11-19 20:34:58,60.1543,45.0,0.0
94,12256,,,1.73203e+09,2024-11-19 20:35:58,60.4018,-59.0,-1.0
94,12206,,,1.73203e+09,2024-11-19 20:36:58,60.2751,-50.0,0.0
93,12227,,,1.73203e+09,2024-11-19 20:37:59,60.3443,21.0,-1.0
93,12213,,,1.73203e+09,2024-11-19 20:38:59,60.3246,-14.0,0.0
93,12289,,,1.73203e+09,2024-11-19 20:39:59,60.3023,76.0,0.0
92,12276,,,1.73203e+09,2024-11-19 20:41:00,60.3,-13.0,-1.0
92,12094,,,1.73203e+09,2024-11-19 20:42:00,60.3098,-182.0,0.0
91,12134,,,1.73203e+09,2024-11-19 20:43:00,60.3169,40.0,-1.0
91,11906,,,1.73203e+09,2024-11-19 20:44:01,60.2597,-228.0,0.0
90,12029,,,1.73203e+09,2024-11-19 20:45:01,60.2634,123.0,-1.0
89,11813,,,1.73203e+09,2024-11-19 20:46:01,60.4161,-216.0,-1.0
88,11893,,,1.73203e+09,2024-11-19 20:47:01,60.4252,80.0,-1.0
87,11878,,,1.73203e+09,2024-11-19 20:48:02,60.2871,-15.0,-1.0
87,11799,,,1.73203e+09,2024-11-19 20:49:02,60.2965,-79.0,0.0
86,11677,,,1.73203e+09,2024-11-19 20:50:03,60.2956,-122.0,-1.0
85,11869,,,1.73203e+09,2024-11-19 20:51:03,60.3353,192.0,-1.0
84,11682,,,1.73203e+09,2024-11-19 20:52:03,61.8819,-187.0,-1.0
84,11937,,,1.73203e+09,2024-11-19 20:53:05,60.3152,255.0,0.0
84,12026,,,1.73203e+09,2024-11-19 20:54:05,60.366,89.0,0.0
83,11880,,,1.73203e+09,2024-11-19 20:55:06,60.3139,-146.0,-1.0
83,11928,,,1.73203e+09,2024-11-19 20:56:06,60.3259,48.0,0.0
82,11877,,,1.73203e+09,2024-11-19 20:57:06,60.3869,-51.0,-1.0
81,11892,,,1.73203e+09,2024-11-19 20:58:07,60.3414,15.0,-1.0
81,11813,,,1.73203e+09,2024-11-19 20:59:07,60.3413,-79.0,0.0
80,11860,,,1.73203e+09,2024-11-19 21:00:07,60.4045,47.0,-1.0
80,11481,,,1.73203e+09,2024-11-19 21:01:08,60.329,-379.0,0.0
79,11353,,,1.73203e+09,2024-11-19 21:02:08,60.2494,-128.0,-1.0
78,11486,,,1.73203e+09,2024-11-19 21:03:08,60.3052,133.0,-1.0
77,11534,,,1.73203e+09,2024-11-19 21:04:09,60.2635,48.0,-1.0
77,11575,,,1.73203e+09,2024-11-19 21:05:09,60.3894,41.0,0.0
76,11788,,,1.73203e+09,2024-11-19 21:06:09,60.3836,213.0,-1.0
76,11791,,,1.73203e+09,2024-11-19 21:07:10,60.3359,3.0,0.0
75,11810,,,1.73203e+09,2024-11-19 21:08:10,60.3649,19.0,-1.0
75,11540,,,1.73203e+09,2024-11-19 21:09:10,60.2702,-270.0,0.0
74,11488,,,1.73203e+09,2024-11-19 21:10:11,61.348,-52.0,-1.0
74,11748,,,1.73203e+09,2024-11-19 21:11:12,60.3696,260.0,0.0
73,11468,,,1.73203e+09,2024-11-19 21:12:12,60.5529,-280.0,-1.0
72,11658,,,1.73203e+09,2024-11-19 21:13:13,60.3565,190.0,-1.0
72,11618,,,1.73203e+09,2024-11-19 21:14:13,60.2598,-40.0,0.0
72,11326,,,1.73203e+09,2024-11-19 21:15:14,60.2298,-292.0,0.0
71,11625,,,1.73203e+09,2024-11-19 21:16:14,60.3691,299.0,-1.0
71,11658,,,1.73203e+09,2024-11-19 21:17:14,60.4053,33.0,0.0
70,11582,,,1.73203e+09,2024-11-19 21:18:15,60.301,-76.0,-1.0
70,11636,,,1.73203e+09,2024-11-19 21:19:15,60.2944,54.0,0.0
70,11632,,,1.73203e+09,2024-11-19 21:20:15,60.3008,-4.0,0.0
69,11475,,,1.73203e+09,2024-11-19 21:21:16,60.5104,-157.0,-1.0
69,11622,,,1.73203e+09,2024-11-19 21:22:16,60.3751,147.0,0.0
69,11523,,,1.73203e+09,2024-11-19 21:23:16,60.2383,-99.0,0.0
68,11538,,,1.73203e+09,2024-11-19 21:24:17,60.2667,15.0,-1.0
68,11532,,,1.73203e+09,2024-11-19 21:25:17,60.3464,-6.0,0.0
67,11492,,,1.73203e+09,2024-11-19 21:26:17,60.933,-40.0,-1.0
67,11399,,,1.73203e+09,2024-11-19 21:27:18,60.4625,-93.0,0.0
66,11538,,,1.73203e+09,2024-11-19 21:28:19,60.3884,139.0,-1.0
66,11480,,,1.73203e+09,2024-11-19 21:29:19,60.2678,-58.0,0.0
66,11436,,,1.73203e+09,2024-11-19 21:30:19,60.3453,-44.0,0.0
65,11309,,,1.73203e+09,2024-11-19 21:31:20,60.406,-127.0,-1.0
65,11418,,,1.73203e+09,2024-11-19 21:32:20,60.2885,109.0,0.0
64,11457,,,1.73203e+09,2024-11-19 21:33:20,60.3564,39.0,-1.0
64,11463,,,1.73203e+09,2024-11-19 21:34:21,60.3158,6.0,0.0
64,11471,,,1.73203e+09,2024-11-19 21:35:21,60.3876,8.0,0.0
63,11477,,,1.73203e+09,2024-11-19 21:36:21,60.3168,6.0,-1.0
63,11445,,,1.73203e+09,2024-11-19 21:37:22,60.3757,-32.0,0.0
62,11419,,,1.73203e+09,2024-11-19 21:38:22,60.2787,-26.0,-1.0
62,11466,,,1.73203e+09,2024-11-19 21:39:22,60.2757,47.0,0.0
62,11240,,,1.73203e+09,2024-11-19 21:40:23,60.2701,-226.0,0.0
61,11433,,,1.73203e+09,2024-11-19 21:41:23,60.4182,193.0,-1.0
61,11431,,,1.73203e+09,2024-11-19 21:42:23,60.3109,-2.0,0.0
61,11394,,,1.73203e+09,2024-11-19 21:43:24,60.3104,-37.0,0.0
60,11360,,,1.73203e+09,2024-11-19 21:44:24,60.2618,-34.0,-1.0
60,11007,,,1.73203e+09,2024-11-19 21:45:24,60.1689,-353.0,0.0
59,11012,,,1.73203e+09,2024-11-19 21:46:24,60.1315,5.0,-1.0
58,11224,,,1.73203e+09,2024-11-19 21:47:24,60.2457,212.0,-1.0
58,11232,,,1.73203e+09,2024-11-19 21:48:25,60.1209,8.0,0.0
57,11232,,,1.73203e+09,2024-11-19 21:49:25,60.087,0.0,-1.0
56,11188,,,1.73203e+09,2024-11-19 21:50:25,60.1523,-44.0,-1.0
56,11068,,,1.73203e+09,2024-11-19 21:51:25,60.3092,-120.0,0.0
55,11218,,,1.73203e+09,2024-11-19 21:52:25,60.4488,150.0,-1.0
55,11129,,,1.73203e+09,2024-11-19 21:53:26,60.2799,-89.0,0.0
54,11124,,,1.73203e+09,2024-11-19 21:54:26,60.2783,-5.0,-1.0
54,11119,,,1.73203e+09,2024-11-19 21:55:26,60.2677,-5.0,0.0
53,11191,,,1.73203e+09,2024-11-19 21:56:27,60.3728,72.0,-1.0
53,11199,,,1.73203e+09,2024-11-19 21:57:27,60.3697,8.0,0.0
52,11216,,,1.73203e+09,2024-11-19 21:58:27,60.4183,17.0,-1.0
52,11175,,,1.73203e+09,2024-11-19 21:59:28,60.4274,-41.0,0.0
51,11155,,,1.73203e+09,2024-11-19 22:00:28,60.3328,-20.0,-1.0
51,11125,,,1.73203e+09,2024-11-19 22:01:29,60.3099,-30.0,0.0
50,10865,,,1.73203e+09,2024-11-19 22:02:29,60.287,-260.0,-1.0
50,11140,,,1.73203e+09,2024-11-19 22:03:29,60.2799,275.0,0.0
49,10957,,,1.73203e+09,2024-11-19 22:04:29,60.3093,-183.0,-1.0
49,11025,,,1.73203e+09,2024-11-19 22:05:30,60.2907,68.0,0.0
48,11103,,,1.73203e+09,2024-11-19 22:06:30,60.4728,78.0,-1.0
48,11207,,,1.73203e+09,2024-11-19 22:07:31,60.3864,104.0,0.0
48,11224,,,1.73203e+09,2024-11-19 22:08:31,60.4011,17.0,0.0
47,11164,,,1.73203e+09,2024-11-19 22:09:31,60.3723,-60.0,-1.0
47,11099,,,1.73203e+09,2024-11-19 22:10:32,60.4025,-65.0,0.0
46,11188,,,1.73203e+09,2024-11-19 22:11:32,60.3164,89.0,-1.0
46,11180,,,1.73203e+09,2024-11-19 22:12:32,60.3985,-8.0,0.0
45,11155,,,1.73203e+09,2024-11-19 22:13:33,60.3155,-25.0,-1.0
45,11021,,,1.73203e+09,2024-11-19 22:14:33,60.2724,-134.0,0.0
45,11007,,,1.73203e+09,2024-11-19 22:15:33,60.283,-14.0,0.0
44,10965,,,1.73203e+09,2024-11-19 22:16:34,60.3616,-42.0,-1.0
44,11121,,,1.73203e+09,2024-11-19 22:17:34,60.4544,156.0,0.0
43,11096,,,1.73203e+09,2024-11-19 22:18:35,60.4384,-25.0,-1.0
42,10976,,,1.73203e+09,2024-11-19 22:19:35,60.3082,-120.0,-1.0
42,10696,,,1.73204e+09,2024-11-19 22:20:35,60.3729,-280.0,0.0
41,11000,,,1.73204e+09,2024-11-19 22:21:36,60.2922,304.0,-1.0
41,11025,,,1.73204e+09,2024-11-19 22:22:36,60.3963,25.0,0.0
40,10658,,,1.73204e+09,2024-11-19 22:23:38,67.8131,-367.0,-1.0
39,10512,,,1.73204e+09,2024-11-19 22:24:46,74.5283,-146.0,-1.0
38,10703,,,1.73204e+09,2024-11-19 22:25:59,60.9613,191.0,-1.0
36,10591,,,1.73204e+09,2024-11-19 22:27:04,95.0317,-112.0,-2.0
35,10716,,,1.73204e+09,2024-11-19 22:28:35,61.8754,125.0,-1.0
35,10684,,,1.73204e+09,2024-11-19 22:29:37,61.3791,-32.0,0.0
34,10773,,,1.73204e+09,2024-11-19 22:30:38,60.3515,89.0,-1.0
33,10864,,,1.73204e+09,2024-11-19 22:31:38,60.3745,91.0,-1.0
33,10958,,,1.73204e+09,2024-11-19 22:32:39,60.2648,94.0,0.0
32,10950,,,1.73204e+09,2024-11-19 22:33:39,60.3086,-8.0,-1.0
32,10992,,,1.73204e+09,2024-11-19 22:34:39,60.3737,42.0,0.0
31,10958,,,1.73204e+09,2024-11-19 22:35:40,60.312,-34.0,-1.0
31,10744,,,1.73204e+09,2024-11-19 22:36:40,60.3387,-214.0,0.0
30,10828,,,1.73204e+09,2024-11-19 22:37:40,60.342,84.0,-1.0
29,10667,,,1.73204e+09,2024-11-19 22:38:41,62.4057,-161.0,-1.0
29,10721,,,1.73204e+09,2024-11-19 22:39:43,60.381,54.0,0.0
28,10652,,,1.73204e+09,2024-11-19 22:40:43,60.2923,-69.0,-1.0
27,10816,,,1.73204e+09,2024-11-19 22:41:44,60.3114,164.0,-1.0
27,10841,,,1.73204e+09,2024-11-19 22:42:44,60.3093,25.0,0.0
26,10704,,,1.73204e+09,2024-11-19 22:43:44,60.2805,-137.0,-1.0
26,10691,,,1.73204e+09,2024-11-19 22:44:45,60.283,-13.0,0.0
25,10707,,,1.73204e+09,2024-11-19 22:45:45,63.4853,16.0,-1.0
24,10495,,,1.73204e+09,2024-11-19 22:46:48,60.647,-212.0,-1.0
24,10798,,,1.73204e+09,2024-11-19 22:47:49,60.2693,303.0,0.0
23,10788,,,1.73204e+09,2024-11-19 22:48:49,60.3279,-10.0,-1.0
22,10455,,,1.73204e+09,2024-11-19 22:49:50,61.2441,-333.0,-1.0
22,10642,,,1.73204e+09,2024-11-19 22:50:51,60.2445,187.0,0.0
21,10696,,,1.73204e+09,2024-11-19 22:51:51,60.2734,54.0,-1.0
21,10727,,,1.73204e+09,2024-11-19 22:52:51,60.2347,31.0,0.0
20,10718,,,1.73204e+09,2024-11-19 22:53:52,60.2813,-9.0,-1.0
19,10737,,,1.73204e+09,2024-11-19 22:54:52,60.2851,19.0,-1.0
19,10348,,,1.73204e+09,2024-11-19 22:55:52,60.2712,-389.0,0.0
18,10479,,,1.73204e+09,2024-11-19 22:56:52,60.3404,131.0,-1.0
17,10542,,,1.73204e+09,2024-11-19 22:57:53,60.0781,63.0,-1.0
17,10484,,,1.73204e+09,2024-11-19 22:58:53,60.2802,-58.0,0.0
16,10589,,,1.73204e+09,2024-11-19 22:59:53,60.3113,105.0,-1.0
16,10599,,,1.73204e+09,2024-11-19 23:00:53,60.2797,10.0,0.0
15,10295,,,1.73204e+09,2024-11-19 23:01:54,60.3086,-304.0,-1.0
14,10322,,,1.73204e+09,2024-11-19 23:02:54,60.2539,27.0,-1.0
13,10309,,,1.73204e+09,2024-11-19 23:03:54,60.246,-13.0,-1.0
12,10144,,,1.73204e+09,2024-11-19 23:04:55,60.3655,-165.0,-1.0
12,10505,,,1.73204e+09,2024-11-19 23:05:55,60.2581,361.0,0.0
12,10524,,,1.73204e+09,2024-11-19 23:06:55,60.2548,19.0,0.0
11,10352,,,1.73204e+09,2024-11-19 23:07:55,60.2497,-172.0,-1.0
11,10444,,,1.73204e+09,2024-11-19 23:08:56,60.243,92.0,0.0
10,10232,,,1.73204e+09,2024-11-19 23:09:56,60.4042,-212.0,-1.0
10,11183,,,1.73204e+09,2024-11-19 23:10:56,60.3457,951.0,0.0
11,11260,,,1.73204e+09,2024-11-19 23:11:57,60.2818,77.0,1.0
12,11186,,,1.73204e+09,2024-11-19 23:12:58,85.7039,-74.0,1.0
13,11770,,,1.73204e+09,2024-11-19 23:14:23,60.2384,584.0,1.0
14,11825,,,1.73204e+09,2024-11-19 23:15:23,60.3775,55.0,1.0
15,11587,,,1.73204e+09,2024-11-19 23:16:23,60.3508,-238.0,1.0
16,11760,,,1.73204e+09,2024-11-19 23:17:24,60.2667,173.0,1.0
16,11604,,,1.73204e+09,2024-11-19 23:18:24,60.2448,-156.0,0.0
17,11883,,,1.73204e+09,2024-11-19 23:19:24,60.9721,279.0,1.0
18,12015,,,1.73204e+09,2024-11-19 23:20:25,60.2584,132.0,1.0
19,12087,,,1.73204e+09,2024-11-19 23:21:25,60.0819,72.0,1.0
19,11485,,,1.73204e+09,2024-11-19 23:22:25,60.0841,-602.0,0.0
20,11963,,,1.73204e+09,2024-11-19 23:23:25,60.1002,478.0,1.0
21,11529,,,1.73204e+09,2024-11-19 23:24:26,60.2223,-434.0,1.0
21,11787,,,1.73204e+09,2024-11-19 23:25:26,60.0863,258.0,0.0
22,11812,,,1.73204e+09,2024-11-19 23:26:26,60.0423,25.0,1.0
23,11492,,,1.73204e+09,2024-11-19 23:27:26,60.1198,-320.0,1.0
23,11907,,,1.73204e+09,2024-11-19 23:28:26,60.1096,415.0,0.0
24,11649,,,1.73204e+09,2024-11-19 23:29:26,60.1165,-258.0,1.0
25,11545,,,1.73204e+09,2024-11-19 23:30:26,60.0981,-104.0,1.0
26,11867,,,1.73204e+09,2024-11-19 23:31:26,60.1585,322.0,1.0
26,11971,,,1.73204e+09,2024-11-19 23:32:27,60.2786,104.0,0.0
27,11868,,,1.73204e+09,2024-11-19 23:33:27,60.2553,-103.0,1.0
28,12092,,,1.73204e+09,2024-11-19 23:34:27,60.2498,224.0,1.0
29,12201,,,1.73204e+09,2024-11-19 23:35:27,60.3253,109.0,1.0
30,12130,,,1.73204e+09,2024-11-19 23:36:28,60.3065,-71.0,1.0
31,11600,,,1.73204e+09,2024-11-19 23:37:28,60.2473,-530.0,1.0
32,11664,,,1.73204e+09,2024-11-19 23:38:28,60.3951,64.0,1.0
33,12243,,,1.73204e+09,2024-11-19 23:39:29,63.6085,579.0,1.0
34,12191,,,1.73204e+09,2024-11-19 23:40:32,60.6609,-52.0,1.0
35,12143,,,1.73204e+09,2024-11-19 23:41:33,60.3895,-48.0,1.0
36,12189,,,1.73204e+09,2024-11-19 23:42:33,61.8438,46.0,1.0
37,11849,,,1.73204e+09,2024-11-19 23:43:35,60.2836,-340.0,1.0
38,12093,,,1.73204e+09,2024-11-19 23:44:35,60.0685,244.0,1.0
38,11924,,,1.73204e+09,2024-11-19 23:45:35,60.2581,-169.0,0.0
39,11826,,,1.73204e+09,2024-11-19 23:46:36,60.0805,-98.0,1.0
39,11665,,,1.73204e+09,2024-11-19 23:47:36,60.258,-161.0,0.0
40,11722,,,1.73204e+09,2024-11-19 23:48:36,60.2429,57.0,1.0
41,12108,,,1.73204e+09,2024-11-19 23:49:36,61.7046,386.0,1.0
42,12121,,,1.73204e+09,2024-11-19 23:50:38,60.6186,13.0,1.0
43,12185,,,1.73204e+09,2024-11-19 23:51:39,60.3967,64.0,1.0
44,12235,,,1.73204e+09,2024-11-19 23:52:39,60.2401,50.0,1.0
45,12243,,,1.73204e+09,2024-11-19 23:53:39,60.3233,8.0,1.0
46,12075,,,1.73204e+09,2024-11-19 23:54:40,60.2474,-168.0,1.0
47,12149,,,1.73204e+09,2024-11-19 23:55:40,60.2225,74.0,1.0
47,11720,,,1.73204e+09,2024-11-19 23:56:40,60.2374,-429.0,0.0
48,12303,,,1.73204e+09,2024-11-19 23:57:40,60.2346,583.0,1.0
49,11811,,,1.73204e+09,2024-11-19 23:58:41,60.3143,-492.0,1.0
50,12400,,,1.73204e+09,2024-11-19 23:59:41,60.2821,589.0,1.0